ax,ay,az
1020,-1968,16300
764,-2324,16380
1660,-1108,16992
1620,-1944,17168
2072,-1220,16744
1880,-2464,17984
2636,-1996,17136
3548,-1140,15604
2584,-2072,16732
2828,-2364,16596
3644,-1496,15952
3980,-1456,16644
4348,-2092,16640
5344,-1552,15508
7192,-204,15096
7868,-780,15044
9380,-340,15752
10436,-576,14184
11580,-272,12472
12924,-552,10784
13808,348,9240
14500,852,7808
14704,472,6480
15672,620,4860
16140,1944,2444
16232,1644,2356
16080,1812,12
16228,2616,-784
15592,2128,-2048
15028,2404,-4208
14960,3796,-4780
14852,4332,-5084
14420,3784,-6564
14192,3476,-6088
14012,1996,-1244
15772,1748,2608
16028,2452,3496
15004,1176,6684
14524,1144,7488
13556,1356,9748
12944,752,10564
12012,320,11676
11200,12,12532
9332,-836,14088
7952,-1412,14448
5904,-1984,16448
3944,-1500,17380
2148,-1884,17664
692,-2744,17468
-1072,-3224,16468
-2488,-2024,16076
-4160,-5144,15312
-5180,-4472,17140
-4476,-3724,17196
-1720,-3108,16536
364,-1784,17660
1672,-1056,17464
3128,-260,17120
4284,536,16244
5960,720,15408
7764,1028,14772
7988,1956,15064
8512,1680,14812
9044,932,14764
9788,996,14584
11436,1192,12732
12556,1432,11536
13884,2196,8744
14312,2132,8576
14656,2156,7360
14732,1752,5836
15352,2344,5080
15996,2940,4700
15476,2748,1728
16156,2824,1208
16268,2800,48
15916,3008,-296
15952,2620,-1924
14492,4000,-4220
16124,2604,-2296
17720,5292,504
16356,4492,1852
15556,2492,2796
14840,1468,5844
14004,916,7904
13160,1184,9400
11772,740,10760
11232,844,12456
10452,1068,14088
9484,928,14880
8908,1284,15168
6764,436,15252
5260,-188,16456
4684,136,16236
3168,-576,16472
1668,-1480,15628
1168,-136,18156
1656,188,18020
1988,-684,18180
3760,-488,18800
6728,2012,16132
8612,2392,14472
9944,2520,12880
11640,3064,11860
12516,3184,10400
13116,2940,9820
14328,3276,7332
14932,3828,6832
15240,3028,7064
15476,2952,4424
15544,2944,3032
16064,3508,1308
15756,3316,20
15848,3008,-1136
16020,3212,-1564
15900,2688,-2920
15408,1800,-4136
15860,692,844
15432,1004,2808
15568,1116,8212
13892,204,9524
11968,-816,11912
9060,-1936,12728
6836,-2800,14460
6424,-2016,16056
5588,-2232,16640
4568,-2068,16896
3764,-2032,16248
2496,-1088,17144
2692,452,16444
1864,1148,17144
1456,2208,17068
1008,2680,16612
684,3972,16560
1000,5488,15836
-32,6784,15668
-420,7612,15476
-652,8532,14548
-976,9628,14612
-1556,10488,14132
-1656,11056,13180
-1852,11756,11528
-2388,12532,10156
-1592,13860,10804
-1480,15072,8664
-2200,14412,7944
-2584,15012,6464
-3172,15492,5184
-3260,16284,4672
-3804,16516,5672
-3348,15844,4784
-3064,14416,5448
-1432,14940,9756
-1076,14536,9352
-844,12900,9852
376,12708,10152
644,12196,12580
416,9924,12504
876,9312,13940
1368,7968,14368
2392,7476,14596
2092,4948,15828
3680,4228,16704
3204,3172,15856
4192,2348,16740
4264,1132,16860
4924,536,16816
5088,-2136,16696
4720,-3704,14828
5208,-4960,14316
5724,-5816,14468
6012,-5216,16256
5304,-7808,13168
5628,-9304,12596
6160,-9612,12100
5764,-11152,11972
5916,-11128,11216
6440,-12316,9144
6036,-11948,10092
5780,-13220,8796
4416,-13820,7160
6016,-13400,6440
6148,-14040,5636
5812,-14348,5744
6192,-14876,3548
5540,-14756,2156
6204,-14548,924
5320,-15436,-320
5444,-14964,-1400
5772,-14724,-1984
6096,-14520,-2052
5048,-14148,-4328
5648,-14304,-4840
5104,-14488,-5500
4948,-14772,-5216
5132,-14884,-3208
4308,-16108,-2000
6112,-14144,-664
4752,-14820,740
4764,-15260,1776
5080,-15052,4908
4992,-13892,6264
4596,-13684,8184
5360,-12060,8072
4676,-12868,8816
4872,-11652,11676
4860,-10456,13788
4176,-10508,12264
4276,-9524,13800
4100,-7836,14132
4672,-7020,14340
4204,-6160,15396
4412,-4980,15344
3868,-4340,15628
3404,-4412,15668
3260,-3268,16456
3568,-2220,16832
3644,-2216,16780
3536,-1448,17012
2992,-484,17024
2776,-316,16928
2420,-280,16736
1932,96,16756
2312,804,17364
1968,1376,16704
2324,2972,16148
2008,4024,16972
1768,4772,17004
1296,5248,16768
1256,6304,15868
1096,7416,15924
1448,8656,13220
216,9228,14784
400,9652,13680
-164,11288,13812
-248,12080,12664
-896,12424,11728
-1308,12772,10564
-1392,13508,10560
-1488,13760,10304
-1140,14340,8724
-1432,14436,8340
-1724,14296,7900
-2260,14888,7676
-2520,15460,6412
-2688,15704,5584
-2660,15796,5200
-2876,15336,4312
-3288,15604,3008
-2868,16244,4436
-2924,16728,5600
-2748,15700,5516
-2032,14904,5812
-1588,15472,11528
-876,15080,10436
-1728,12336,10880
-1376,11280,12248
-1136,9220,13240
-152,8508,14676
120,7960,16276
-424,5720,16080
64,3924,16232
260,3860,16972
352,2620,16616
392,1596,17380
756,1044,17064
1220,-176,17292
2196,-348,16940
3036,216,16292
3092,-684,17404
4140,-128,16740
5208,-64,17236
5644,-328,15732
6844,92,15804
7880,464,14644
9332,196,13584
9728,280,11384
11472,232,11592
12392,268,11704
13112,672,10292
14136,1072,9256
14364,1204,8364
14904,1212,6840
15864,1736,4216
17044,2200,2612
16596,1076,2836
16500,1740,1680
16312,1096,1212
15916,868,-1044
15932,1308,-2516
15556,1000,-4420
15600,1260,-6592
14748,1764,-6988
13316,1572,-8748
11800,1196,-9144
11976,2020,-10904
11588,1344,-12216
9756,536,-12632
8632,524,-13460
8036,156,-13388
6940,80,-14472
5928,-652,-14948
4216,-1680,-15332
2796,-1424,-15828
2724,-1040,-15036
2428,-2056,-16256
4140,-704,-15584
5856,-296,-15148
8128,1116,-15284
10528,1384,-14580
10744,1732,-13728
12104,2968,-11628
13100,2944,-9156
15120,3340,-5424
15456,3420,-3212
15744,3300,-1788
16072,3508,936
15608,3852,2368
15908,4280,3200
15724,3912,3304
14720,3716,4944
13932,3732,7868
14404,4268,7804
14008,3936,9308
12656,4096,11228
11344,3532,12116
9840,3336,12992
8876,3820,13216
7288,3720,14280
6416,4288,15880
5840,3788,15684
4900,3168,16044
3260,3112,16032
2804,3332,15828
224,2928,16120
-1256,3544,18084
-1416,3424,18384
-1792,3820,17824
-2332,3480,17436
-2596,3360,16600
-3488,2860,15748
-3852,2728,16000
-5812,1788,16524
-6296,2040,15608
-6992,2464,14492
-8604,2172,13424
-10336,2508,13380
-10772,2784,13204
-11352,2780,11792
-12416,2652,12296
-13072,3304,10136
-13184,3392,9208
-14228,3464,8660
-15012,3272,8424
-14608,3572,8672
-13692,3908,9420
-12636,4072,9832
-10964,4052,11384
-10272,3820,13964
-9028,3156,12892
-7268,3620,13568
-5248,3696,14968
-4024,3224,15244
-3296,2656,17092
-1640,2868,18336
-320,2788,17816
1808,3108,18928
1868,2024,16844
3576,1480,17216
3780,712,17204
4128,676,17144
4944,456,16212
5788,696,15752
6640,792,15356
8284,1676,15300
9468,1992,15200
11368,2932,11684
12180,2492,10412
13056,2548,9012
14312,3368,6844
15164,3328,5160
15240,3148,4504
16244,3080,2648
15628,2984,564
15680,2492,336
15808,2016,-2568
15760,2352,-1608
15588,3380,2960
16528,3244,3588
15716,3624,5476
13388,2140,8164
12124,1060,10176
10272,1008,11268
9328,1048,13372
7720,892,13628
4536,-976,14088
3152,-1464,15824
2132,-1264,18432
2084,308,17476
932,1568,17816
1048,3792,17020
-280,5056,16428
-2032,6064,16996
-1436,9060,15460
-2372,9076,14276
-2384,9736,14480
-688,11048,13048
820,11076,11824
2316,11012,11460
4972,12076,9776
7088,12960,7328
7616,12740,6136
8032,12284,5836
8508,11812,3256
9040,12680,3224
10600,13652,2392
10568,12584,-1752
9848,12296,-1264
8680,14804,6976
7340,12148,9188
6488,12248,9300
4780,12356,12340
1908,11244,12520
-240,10664,12608
-2144,10244,13536
-4084,10148,13616
-5768,9592,13984
-7128,10276,12072
-7568,10952,11448
-8960,10136,11184
-7812,10792,11304
-6864,10928,13308
-5384,10332,13796
-600,11828,11296
1116,12796,11900
-160,9992,14684
3144,12368,11588
4608,12056,11804
5168,11328,9412
7124,11576,6796
9328,12300,5840
9748,12900,5784
10968,12428,3024
10220,11940,1432
10268,12072,404
10644,11704,-1488
10892,11604,-4136
11156,11536,-3080
10132,11020,-2532
10128,11200,1688
9412,11480,6816
9080,10988,10504
7844,10392,11272
6600,9908,11800
5864,9328,11728
2528,7864,15384
1712,9044,16872
1560,8884,15780
1444,7096,15580
2488,6464,14704
3500,5316,17276
4224,3740,19100
3672,1804,18628
3260,-576,17292
2084,-3608,15468
3524,-4384,15900
3276,-5108,16652
2672,-8332,16432
1768,-9900,17068
5332,-8896,15044
5252,-8756,13828
7832,-8548,15468
9936,-8296,12776
12128,-7916,8928
12860,-7808,5808
12648,-7428,3312
13124,-8256,2668
13316,-8972,160
14168,-7716,-1360
13984,-7284,-2660
13692,-7908,-3488
12876,-7764,-5180
13104,-7636,-6544
13596,-8500,-4560
13092,-8844,-3488
13424,-9236,-1072
13012,-8908,824
12924,-9492,2964
10948,-11288,4324
10744,-10256,6972
9872,-10228,7836
8376,-9452,10012
7544,-10028,11384
6196,-11420,11768
4884,-11192,11280
3860,-11784,10484
2460,-12372,10756
2648,-11828,11372
2672,-12192,11604
2096,-12684,13452
3792,-11628,12884
6672,-10136,13864
7980,-9484,11908
9476,-9000,9608
11016,-8184,8592
11564,-8596,7428
12564,-8808,7000
13076,-8112,4820
12756,-8900,2604
13368,-8308,5612
12348,-9764,5656
12564,-9120,5660
11472,-9608,5940
9584,-9732,9176
8568,-10504,9940
7328,-11500,9408
6564,-11168,9344
5716,-11700,11108
6268,-11820,10228
5260,-11904,10688
4996,-12060,9496
3844,-12772,10152
3708,-12872,10052
2612,-13680,9584
2468,-13120,9112
3192,-13228,11044
2164,-13688,9148
1808,-13816,9916
820,-14604,7776
716,-14544,8372
180,-14620,6892
-624,-15276,6592
-748,-16020,7672
-280,-14524,6932
-8,-13124,7328
-3044,-14436,8736
-4016,-14432,8528
-4764,-12984,10080
-5960,-11792,10428
-7476,-12048,10052
-7376,-9848,8684
-8712,-9636,8360
-9512,-9824,9588
-10964,-9588,8044
-11252,-8468,7564
-12292,-8796,7208
-12588,-9048,8224
-12072,-8312,8996
-11160,-8184,10784
-8584,-7540,10000
-6144,-6872,11688
-5160,-7620,12660
-3712,-7344,14048
-1852,-6768,13740
-640,-7216,14504
52,-8320,14536
1204,-8724,14056
1488,-9128,13724
2240,-10232,13316
2488,-11132,12548
2328,-12164,10912
2700,-13068,9768
2896,-13564,7408
1896,-15320,7912
1924,-15852,7432
2572,-14924,6640
1372,-14216,7656
2000,-11464,9124
1084,-11820,12224
1520,-11112,12120
180,-9312,12592
256,-8424,15476
252,-6764,15608
756,-4480,13716
-316,-4220,16792
468,-2552,17604
476,588,16592
84,2028,17240
328,2936,17036
8,4040,16156
80,5468,14956
-452,7052,15944
112,8836,14560
-628,10188,14624
-1712,10484,14556
-3568,11188,12520
-3756,11796,11668
-3240,11996,11952
-3628,11800,12604
-2948,10808,12052
-3016,10096,13704
-1528,9068,14164
-932,7088,15232
-340,5716,14704
-468,4376,16484
-444,3272,17324
-524,1088,16388
-404,-548,17508
-312,-1524,18440
876,-428,17172
