ax,ay,az
584,-368,16896
324,-500,17100
484,-388,17036
328,-936,17284
184,-1456,17180
276,-1448,17152
524,-1220,16852
1448,-684,17340
348,-1132,17580
208,-1272,17072
1148,168,17712
580,-140,17008
264,-704,16688
532,-848,17212
1068,-972,17496
568,-2240,16932
716,-1624,16884
344,-1512,17116
544,-1024,16908
688,-1148,17220
872,-1668,17268
964,-1644,16944
736,-880,17084
464,-936,16988
772,-824,16988
652,-1100,17412
640,-1172,17048
412,-1704,17100
636,-1840,16996
808,-1876,16584
948,-1292,17048
864,-1308,16980
820,-1396,17136
916,-1336,16916
672,-1136,17172
688,-748,17104
1048,-412,17056
912,-364,17300
700,-1564,16840
664,-1872,17056
540,-1976,16592
808,-1992,16384
220,-1872,16876
308,-932,17620
832,-500,16904
884,-692,16892
996,-812,16188
400,-1148,16836
452,-1268,17148
692,-1008,17680
588,-920,17792
588,-648,17428
384,-1320,16256
812,-948,17020
912,-1120,18016
488,-996,17124
508,-744,16924
356,-688,17124
756,-472,17232
1060,-788,17252
792,-1268,17016
560,-1248,16876
272,-1504,16848
672,-772,17328
360,-1196,17308
332,-1016,17208
1308,-976,16656
620,-1416,16920
796,-1328,16728
364,-1372,17668
264,-1108,17100
180,-1540,17512
568,-1228,17464
452,-1360,16976
704,-568,16868
996,-920,16996
604,-1164,17188
740,-1156,17168
776,-1148,16968
664,-1232,17076
568,-1344,16812
872,-1404,16864
824,-1452,16828
744,-1192,17276
404,-984,17136
-32,-952,17128
520,-840,17336
536,-640,17272
416,-856,17108
968,-1264,16476
584,-1644,17484
696,-1220,17072
300,-728,16904
284,-668,17152
252,-872,17528
-124,-1264,17468
-152,-924,16728
-316,-1424,16780
856,-792,16916
208,-1556,16996
184,-1312,17424
836,-936,16864
464,-652,17844
388,-952,16964
224,-676,17980
564,-1056,17500
996,-1148,17096
1028,-896,16460
736,-1092,16412
1208,-836,15876
1320,-836,16156
936,-772,17832
1044,-916,17364
748,-608,17236
544,-1284,17088
856,-576,16440
828,-1040,16844
604,-904,17400
304,-948,16880
72,-1216,16728
136,-944,17400
352,-808,17384
296,-772,17044
48,-940,17024
-84,-992,17232
-88,-856,17344
20,-800,16872
-160,-1056,17764
-8,-1088,16880
-392,-792,16916
-240,-504,16832
124,-784,17280
80,-672,17276
-92,-1084,17744
548,-524,18596
192,-1168,17880
604,-968,14644
604,-444,16224
876,-836,17488
1256,-1756,17364
896,-728,17248
988,916,17108
368,-224,16916
256,-732,16420
684,-1216,17576
560,-1196,17628
372,-1436,16992
528,-1124,16936
376,-1356,17644
436,-1524,16956
92,-2256,16152
1352,-16,16672
764,-152,17940
520,-128,17668
192,-676,16860
220,-832,16820
48,-1592,17528
212,-1480,17532
72,-1960,16864
208,-1720,16916
460,-1724,17120
404,-1836,16684
464,-976,16844
512,-992,16984
928,-620,16600
796,-632,16264
688,-796,16724
676,-856,17556
116,-1216,16908
-308,-1284,17112
312,-604,17756
52,-36,17324
-60,-1180,16812
-172,-1548,17140
-416,-1748,16544
-88,-980,16800
36,-188,17224
-164,-460,17668
256,-36,17292
220,188,16924
404,300,17284
324,468,17228
644,1016,17444
872,1388,17044
696,1500,17040
780,1664,17360
640,1444,17288
1064,788,20968
664,1084,16936
472,1896,17156
564,2112,16812
912,1908,17196
652,840,16716
492,308,16992
900,796,17156
228,-504,17044
456,-840,17408
652,-624,17244
872,-192,17152
900,-248,17288
960,-244,17420
900,-212,17144
1144,-204,16972
1156,-400,16976
1312,-248,17080
1348,-136,16924
1204,-268,17068
1252,-212,17328
1184,-496,16912
1240,-332,16852
1208,-376,16928
1304,-296,17188
1104,-288,17036
1136,-296,16908
1060,-324,17232
740,-524,17004
488,-496,17508
504,-228,17416
556,-348,17148
284,-244,16952
148,-604,16928
148,-76,16976
128,-228,16728
36,-296,16956
304,-260,17412
-468,-548,17308
-380,-552,17332
-80,-476,17036
88,-292,17072
120,-128,17120
348,500,16812
196,600,16520
84,24,17268
152,-528,17232
332,-584,17128
376,-616,17212
496,-248,16844
740,-180,17176
680,-200,17408
660,100,16800
520,124,16996
728,184,17176
820,200,17408
768,-64,17064
944,232,16848
1080,316,16936
896,-124,17204
808,-676,17132
584,-748,17164
824,-404,17068
800,-452,17000
720,-836,17116
604,-660,17108
892,288,17296
852,-44,17228
628,-44,16896
-416,-712,17688
-92,-532,16880
-932,-1116,17312
1032,-300,16748
-208,-1136,16864
-452,-1244,17308
400,-804,16984
-208,-1668,16684
-268,-1248,18432
-408,-1476,16660
628,-660,16904
108,-1220,17968
544,-900,17252
328,-1048,17320
488,-1084,17244
636,-748,17300
844,-992,17144
896,-696,16916
880,-856,16760
992,-956,16836
664,-1304,17144
992,-1160,17228
1024,-1136,17152
1212,-816,17164
1216,-696,17164
1144,-700,17472
764,-812,18184
1948,-400,16516
1676,-784,16956
1924,-960,16732
1772,-796,16752
1664,-448,17016
1320,-1112,17164
1628,-1252,17568
2084,-1108,17140
1632,-1712,16912
1748,-1792,17136
2212,-1216,16544
1532,-1456,17096
1924,-1780,16256
1788,-1076,17124
1904,-1332,16416
2156,-1004,16704
1796,-1264,17168
2536,-660,17432
2208,-1172,16752
2032,-880,16492
1992,-992,16512
2316,-1540,16800
2296,-1084,17200
1960,-852,17120
2188,-1056,16848
2384,-908,16760
2420,-916,17260
1964,-1372,16404
2404,-1088,16848
2264,-1488,16772
2388,-1756,16492
2488,-1516,17100
2164,-1876,17192
2488,-1684,17020
2612,-1440,16808
2324,-1440,16096
2564,-1352,16708
2320,-972,16908
2444,-1068,16372
2184,-1352,16728
2336,-1052,16896
2448,-1196,17088
2364,-1096,17148
2136,-1268,16792
1980,-1216,16340
1828,-1764,17316
1872,-1620,17152
1584,-2328,16576
1456,-1628,16456
1204,-2876,17008
1116,-2328,17368
620,-2724,16800
1012,-2440,17504
1064,-2040,18156
720,-2400,16520
792,-1932,16356
996,-1200,17256
1140,-1268,17284
828,-1840,16932
716,-2048,16680
576,-2156,17468
588,-2340,16696
100,-2464,16692
-40,-2700,17344
492,-2308,16848
880,-1920,16532
-180,-1736,16472
368,-1388,17612
408,-2076,17300
488,-2312,17216
20,-2384,18136
136,-2192,17396
416,-1712,16728
504,-1880,16768
316,-2192,17276
244,-1996,17092
820,-1552,17092
444,-1568,16652
728,-1388,17168
648,-1504,17020
680,-1048,17212
360,-2816,17524
1100,-2076,16664
480,-2352,16696
632,-1936,16796
536,-1908,16876
864,-1352,17192
508,-1996,17256
704,-1696,17480
832,-1824,17212
500,-2304,16820
1212,-856,16208
1128,-840,17212
1080,-1408,16976
1216,-1392,16968
1336,-1348,16824
1156,-2004,16988
1524,-1684,16960
1056,-2276,17104
1324,-1580,17156
1072,-1860,17188
980,-1536,16776
544,-2656,17000
988,-1716,17172
532,-1768,16536
404,-1996,17464
572,-1544,16812
888,-1148,17156
416,-1588,17060
780,-1360,17552
1108,-1656,17528
1436,-1024,17128
1624,-888,16204
1380,-560,16548
1032,-920,17200
680,-1216,17100
1016,-1084,16596
1416,-964,16864
1660,-628,17028
1876,-868,16432
1452,-1140,17180
1428,-784,17004
1040,-788,17244
1596,-412,16504
-12,-1536,17772
776,-908,16808
464,-1224,16964
688,-1284,17292
2104,-108,16352
124,-1472,18312
348,-1232,17136
368,-1296,16656
856,-788,17104
612,-1288,17008
384,-1876,16388
-528,-3236,16416
-1296,-4980,16148
-1804,-6716,16200
-1936,-7888,15528
-2940,-10636,12652
-2248,-10288,12572
-2632,-11216,12388
-2964,-12688,10680
-2112,-11968,12152
-2528,-12416,8836
-2704,-11772,9860
-2564,-11740,10396
-2024,-10940,11560
-1304,-10180,12052
-1856,-9876,13312
-2688,-10076,13592
-2584,-7100,15824
-2532,-8100,16380
-780,-6588,15608
220,-4736,16488
-488,-5176,15256
-1056,-6240,15184
860,-2724,17892
1464,-1460,17188
1524,-2464,16988
2656,-952,16176
3868,-112,16712
6440,3720,16364
7344,3408,14864
9344,5884,12800
9908,5888,10712
11072,6536,11416
11436,6180,10232
10808,5736,10248
9756,5468,11724
8804,5068,12992
7268,2936,14716
6152,2572,15008
4952,1672,16136
3948,812,17248
3364,-196,16324
2396,-868,17040
1628,-1872,16932
1836,-1800,16588
2596,-1192,17984
1008,-2072,17180
1392,-2084,16340
1596,-1764,16940
2300,1800,17464
596,-4392,15880
1656,-2048,17660
708,-3452,16420
1444,-1416,17156
1516,-340,17244
1464,-960,17036
1264,-2184,17152
1280,-1788,17168
896,-2772,16328
1140,-2696,16636
1200,-2148,17604
2592,808,17536
960,-1532,17392
1448,-1600,17044
1544,-1752,16916
1456,-2228,17076
1644,-1844,16488
1764,-1708,16852
1704,-1940,16232
720,-1916,17624
1184,-2204,17328
1512,-1836,17388
1168,-1928,16936
584,-2208,17460
868,-2048,16812
1224,-1484,16476
1264,-1568,17324
1384,-1628,17044
1460,-1372,17512
1324,-1388,17324
908,-1872,16972
2208,-372,17364
1828,-704,16704
884,-364,16560
2176,-452,17184
1660,-1256,17604
1368,-1204,16752
856,-1996,16840
1188,-1068,16728
1096,-1740,17084
1392,-1520,16980
1356,-1408,17084
1172,-2004,16968
1612,-1012,16852
1200,-1804,16836
1672,-1212,17068
1552,-1436,17164
1176,-1484,16808
1376,-1080,16452
1868,240,17524
1164,-1276,17340
1096,-1652,16712
1140,-1588,16824
1528,-1936,17348
1288,-2140,17368
1304,-1836,16584
1280,-1264,17316
1428,-1376,17076
1768,-684,16872
1516,-808,16632
1656,-256,16952
1316,-1908,17100
1464,-1988,17152
1816,-1992,16816
1456,-2004,16880
1296,-1948,16792
1480,-1596,16732
400,-2244,16140
1912,-180,17328
1320,-592,17448
1368,-1064,17184
1488,-1340,17096
1716,-1792,17480
1348,-2440,16824
1004,-2432,16676
1460,-1236,16952
1880,-1380,17140
1376,-2028,17320
580,-2156,15404
1372,-1540,16388
1328,-2028,17876
2004,-968,17748
1892,-848,17312
1516,-1192,16908
1244,-1916,16076
876,-2728,15188
1132,-2504,16152
2680,304,18704
1200,-964,17780
884,-1464,16532
1968,-388,17252
1552,-900,16712
1396,-1424,17208
1320,-1960,16696
836,-2644,16048
1556,-1312,17268
1696,-1168,17052
1676,-1156,17160
1076,-1488,16788
1540,-1216,16756
2628,88,17428
1212,-2772,16908
1360,-2340,17296
1536,-2256,16896
2192,-1188,16900
2036,-1284,16336
1612,-1308,16340
1260,-1988,16992
2056,-1392,17476
1832,-1900,16960
1388,-1672,16812
1560,-1568,17268
1644,-1552,16988
1704,-1112,16652
1436,-760,16968
1356,-924,17236
952,-1248,17344
1324,-1316,17192
872,-1800,17440
536,-2280,16756
380,-1984,16432
1144,-676,17348
628,-1240,17888
496,-1896,17128
672,-1472,16732
752,-1252,17552
768,-1376,17376
956,-1372,17340
932,-1360,17312
1120,-1048,17040
996,-904,17040
840,-1132,16032
48,-1736,17468
